		<Bundle xmlns="http://hl7.org/fhir">
			<id value="d12dc439-ca5c-4177-bb70-4fece88edab0"/>
			<meta>
				<profile value="https://fhir.nhs.uk/StructureDefinition/itk-message-bundle-1"/>
			</meta>
			<type value="message"/>
			<entry>
				<fullUrl value="https://fhir.nhs.uk/StructureDefinition/itk-messageheader-1"/>
				<resource>
					<MessageHeader>
						<id value="ea7221b8-3cc0-4b11-bc95-585b056b5427"/>
						<meta>
							<profile value="https://fhir.nhs.uk/StructureDefinition/itk-messageheader-1"/>
						</meta>
						<extension url="https://fhir.nhs.uk/StructureDefinition/extension-itk-messagehandling-1">
							<extension url="key">
								<valueCodeableConcept>
									<coding>
										<system value="https://fhir.nhs.uk/itk-handling-key-1"/>
										<code value="SNDSRVC"/>
										<display value="Sending Service"/>
									</coding>
								</valueCodeableConcept>
							</extension>
							<extension url="value">
								<valueString value="SendDocument-v1-0"/>
							</extension>
						</extension>
						<extension url="https://fhir.nhs.uk/StructureDefinition/extension-itk-messagehandling-1">
							<extension url="key">
								<valueCodeableConcept>
									<coding>
										<system value="https://fhir.nhs.uk/itk-handling-key-1"/>
										<code value="INTID"/>
										<display value="Interaction ID"/>
									</coding>
								</valueCodeableConcept>
							</extension>
							<extension url="value">
								<valueString value="DOC-ToC-Primary-Recipient-eDischarge-1"/>
							</extension>
						</extension>
						<extension url="https://fhir.nhs.uk/StructureDefinition/extension-itk-messagehandling-1">
							<extension url="key">
								<valueCodeableConcept>
									<coding>
										<system value="https://fhir.nhs.uk/itk-handling-key-1"/>
										<code value="INFACK"/>
										<display value="Infrastructure Acknowledgement"/>
									</coding>
								</valueCodeableConcept>
							</extension>
							<extension url="value">
								<valueBoolean value="true"/>
							</extension>
						</extension>
						<timestamp value="2017-01-23T10:10:15+00:00"/>
						<event>
							<extension url="https://fhir.nhs.uk/StructureDefinition/extension-cofe-care-setting-type-1">
								<valueCodeableConcept>
									<coding>
										<system value="http://snomed.info/sct"/>
										<code value="394576009"/>
										<display value="Accident &amp; emergency"/>
									</coding>
								</valueCodeableConcept>
							</extension>
							<system value="http://snomed.info/sct"/>
							<!--<code value="373942005"/>-->
							<code value="urn:nhs:names:services:fhirmessaging"/>
							<display value="Discharge summary"/>
						</event>
						<source>
							<endpoint value="urn:nhs-uk:addressing:ods:B83019"/>
						</source>
						<destination>
							<endpoint value="urn:nhs-uk:addressing:ods:RHM"/>
						</destination>
						<author>
							<reference value="Practitioner/44c853c7-a22f-49ce-8eb5-27a05c83e6ec"/>
							<display value="Dr Matthew Scott"/>
						</author>
						<data>
							<reference value="Bundle/f862ec24-e05a-42d1-aea5-d0a9c092e6ae"/>
						</data>
					</MessageHeader>
				</resource>
			</entry>
			<entry>
				<resource>
					<Bundle>
						<id value="f862ec24-e05a-42d1-aea5-d0a9c092e6ae"/>
						<meta>
							<profile value="https://fhir.nhs.uk/StructureDefinition/cofe-document-bundle-1"/>
						</meta>
						<type value="document"/>
						<entry>
							<fullUrl value="https://fhir.nhs.uk/StructureDefinition/cofe-cda-header-composition-1"/>
							<resource>
								<Composition>
									<id value="fa2a75a7-4257-422d-92a4-cf537f078e13"/>
									<meta>
										<profile value="https://fhir.nhs.uk/StructureDefinition/cofe-cda-header-composition-1"/>
									</meta>
									<extension url="https://fhir.nhs.uk/StructureDefinition/extension-cofe-information-recipient-1">
										<valueReference>
											<reference value="Practitioner/8ece9986-9af0-4882-b0cf-23a96ea7b509"/>
											<display value="Mrs Angela Smith"/>
										</valueReference>
									</extension>
									<extension url="https://fhir.nhs.uk/StructureDefinition/extension-cofe-information-recipient-1">
										<valueReference>
											<reference value="Practitioner/5e414a77-d394-4248-a631-00e45ddb64a0"/>
											<display value="Dr John Lorenzo"/>
										</valueReference>
									</extension>
									<extension url="https://fhir.nhs.uk/StructureDefinition/extension-cofe-care-setting-type-1">
										<valueCodeableConcept>
											<coding>
												<system value="http://snomed.info/sct"/>
												<code value="394576009"/>
												<display value="Accident &amp; emergency"/>
											</coding>
										</valueCodeableConcept>
									</extension>
									<identifier>
										<value id="2b5d459b-df79-4a2b-9b0c-95b2a7ee2ca4"/>
									</identifier>
									<date value="2015-02-17T10:00:00+00:00"/>
									<type>
										<coding>
											<system value="http://snomed.info/sct"/>
											<code value="373942005"/>
											<display value="Discharge summary"/>
										</coding>
									</type>
									<title value="Discharge summary"/>
									<status value="final"/>
									<confidentiality value="V"/>
									<subject>
										<reference value="Patient/f919dedc-3c62-462f-a171-8d86c5aaa074"/>
										<display value="Mr Jon Burrows"/>
									</subject>
									<author>
										<reference value="Practitioner/44c853c7-a22f-49ce-8eb5-27a05c83e6ec"/>
										<display value="Dr Matthew Scott"/>
									</author>
									<custodian>
										<reference value="Organization/6de0a05a-d4b2-4f67-b0d4-80cc2a670f90"/>
										<display value="Leeds Teaching Hospitals NHS Trust"/>
									</custodian>
									<encounter>
										<reference value="Encounter/cf080749-31c9-4ff6-b2d8-a2dd3dce851c"/>
										<display value="Emergency department patient visit"/>
									</encounter>
									<section>
										<title value="Admission details"/>
										<code>
											<coding>
												<system value="http://snomed.info/sct"/>
												<code value="886781000000108"/>
												<display value="Admission details"/>
											</coding>
										</code>
										<text>
											<status value="generated"/>
											<div xmlns="http://www.w3.org/1999/xhtml">
												<table width="100%">
													<tbody>
														<tr>
															<th>Admission method</th>
															<td>Emergency</td>
														</tr>
														<tr>
															<th>Date of admission</th>
															<td>12-Feb-2015</td>
														</tr>
														<tr>
															<th>Source of admission</th>
															<td>Usual place of residence</td>
														</tr>
													</tbody>
												</table>
											</div>
										</text>
										<orderedBy>
											<coding>
												<code value="system"/>
												<display value="Sorted by System"/>
											</coding>
										</orderedBy>
									</section>
									<section>
										<title value="Allergies and adverse reactions"/>
										<code>
											<coding>
												<system value="http://snomed.info/sct"/>
												<code value="886921000000105"/>
												<display value="Allergies and adverse reactions"/>
											</coding>
										</code>
										<text>
											<status value="generated"/>
											<div xmlns="http://www.w3.org/1999/xhtml">
												<table width="100%">
													<tbody>
														<tr>
															<th>Causative agent</th>
															<td>Penicillin</td>
														</tr>
														<tr>
															<th>Description of the reaction</th>
															<td>Rash. No swelling/anaphylaxis</td>
														</tr>
													</tbody>
												</table>
											</div>
										</text>
										<orderedBy>
											<coding>
												<code value="system"/>
												<display value="Sorted by System"/>
											</coding>
										</orderedBy>
									</section>
									<section>
										<title value="Assessment scales"/>
										<code>
											<coding>
												<system value="http://snomed.info/sct"/>
												<code value="887141000000103"/>
												<display value="Assessment scales"/>
											</coding>
										</code>
										<text>
											<status value="generated"/>
											<div xmlns="http://www.w3.org/1999/xhtml">
												<table width="100%">
													<tbody>
														<tr>
															<th>Assessment scales</th>
															<td>TIMI score=2</td>
														</tr>
													</tbody>
												</table>
											</div>
										</text>
										<orderedBy>
											<coding>
												<code value="system"/>
												<display value="Sorted by System"/>
											</coding>
										</orderedBy>
									</section>
									<section>
										<title value="Clinical summary"/>
										<code>
											<coding>
												<system value="http://snomed.info/sct"/>
												<!--									
										<code value="887181000000106"/>
										<display value="Clinical summary"/>
-->
												<code value=" 1077901000000108"/>
												<display value="Clinical narrative"/>
											</coding>
										</code>
										<text>
											<status value="generated"/>
											<div xmlns="http://www.w3.org/1999/xhtml">
												<table width="100%">
													<tbody>
														<tr>
															<!--												
													<th>Clinical Summary</th>
-->
															<th>Clinical narrative</th>
														</tr>
														<tr>
															<td>58 year old man with an acute history of cardiac sounding chest pain lasting around 2 hours.</td>
														</tr>
														<tr>
															<td>Examination unremarkable.</td>
														</tr>
														<tr>
															<td>Inferior ischaemic changes on ECGs and raised Troponin T.</td>
														</tr>
														<tr>
															<td>Coronary angiogram demonstrated diseased RCA, drug eluting stent successfully placed.</td>
														</tr>
														<tr>
															<td>Appropriate secondary prevention medications prescribed and for follow up with Cardiac Rehabilitation team.</td>
														</tr>
													</tbody>
												</table>
											</div>
										</text>
										<orderedBy>
											<coding>
												<code value="system"/>
												<display value="Sorted by System"/>
											</coding>
										</orderedBy>
									</section>
									<section>
										<title value="Diagnoses"/>
										<code>
											<coding>
												<system value="http://snomed.info/sct"/>
												<code value="887161000000102"/>
												<display value="Diagnoses"/>
											</coding>
										</code>
										<text>
											<status value="generated"/>
											<div xmlns="http://www.w3.org/1999/xhtml">
												<table width="100%">
													<tbody>
														<tr>
															<th>Diagnosis</th>
														</tr>
														<tr>
															<td>Cardiac chest pain/ACS</td>
														</tr>
													</tbody>
												</table>
											</div>
										</text>
										<orderedBy>
											<coding>
												<code value="system"/>
												<display value="Sorted by System"/>
											</coding>
										</orderedBy>
									</section>
									<section>
										<title value="Discharge details"/>
										<code>
											<coding>
												<system value="http://snomed.info/sct"/>
												<code value="886811000000106"/>
												<display value="Discharge details"/>
											</coding>
										</code>
										<text>
											<status value="generated"/>
											<div xmlns="http://www.w3.org/1999/xhtml">
												<table width="100%">
													<tbody>
														<tr>
															<th>Discharging consultant</th>
															<td>Mr Abacus</td>
														</tr>
														<tr>
															<th>Date of discharge</th>
															<td>16-Feb-2015</td>
														</tr>
														<tr>
															<th>Discharge method</th>
															<td>Patient discharged on clinical advice</td>
														</tr>
														<tr>
															<th>Discharge destination</th>
															<td>Usual place of residence</td>
														</tr>
													</tbody>
												</table>
											</div>
										</text>
										<orderedBy>
											<coding>
												<code value="system"/>
												<display value="Sorted by System"/>
											</coding>
										</orderedBy>
									</section>
									<section>
										<title value="Information given"/>
										<code>
											<coding>
												<system value="http://snomed.info/sct"/>
												<code value="887221000000101"/>
												<display value="Information given"/>
											</coding>
										</code>
										<text>
											<status value="generated"/>
											<div xmlns="http://www.w3.org/1999/xhtml">
												<table width="100%">
													<tbody>
														<tr>
															<th>Information Given</th>
														</tr>
														<tr>
															<td>Patient seen by Cardiac Rehab and information given regarding diagnosis, lifestyle change and benefits of rehab programme.</td>
														</tr>
														<tr>
															<td>Community follow up planned.</td>
														</tr>
													</tbody>
												</table>
											</div>
										</text>
										<orderedBy>
											<coding>
												<code value="system"/>
												<display value="Sorted by System"/>
											</coding>
										</orderedBy>
									</section>
									<section>
										<title value="Investigations and procedures requested"/>
										<code>
											<coding>
												<system value="http://snomed.info/sct"/>
												<code value="887191000000108"/>
												<display value="Investigations and procedures requested"/>
											</coding>
										</code>
										<text>
											<status value="generated"/>
											<div xmlns="http://www.w3.org/1999/xhtml">
												<table width="100%">
													<tbody>
														<tr>
															<th>FBC</th>
															<td>5 x 10<sup>12</sup>/L, WCC: 11.1 x 10<sup>9</sup>/L, Hb: 150 g/dl, neutrophils: 7.0 x 10<sup>9</sup>/L, eosinophils: 0.40 x 10<sup>9</sup>/L, lymphocytes: 3.5x10<sup>9</sup>/L, monocytes: 0.3 x 10<sup>9</sup>/L</td>
														</tr>
														<tr>
															<th>Arterial Blood Gases</th>
															<td>PH: 7.41, pO<sub>2</sub>: 13 kPa, pCO<sub>2</sub>: 6.0kPa, HCO3: 24 mEq/L, B.E.: +2 mmol/L</td>
														</tr>
														<tr>
															<th>ECG</th>
															<td>Inferior ischaemic changes</td>
														</tr>
														<tr>
															<th>Chest Xray</th>
															<td>Normal</td>
														</tr>
													</tbody>
												</table>
											</div>
										</text>
										<orderedBy>
											<coding>
												<code value="system"/>
												<display value="Sorted by System"/>
											</coding>
										</orderedBy>
									</section>
									<section>
										<title value="Legal information"/>
										<code>
											<coding>
												<system value="http://snomed.info/sct"/>
												<code value="886961000000102"/>
												<display value="Legal information"/>
											</coding>
										</code>
										<text>
											<status value="generated"/>
											<div xmlns="http://www.w3.org/1999/xhtml">
												<table width="100%">
													<tbody>
														<tr>
															<th>Advance decisions about treatment</th>
														</tr>
														<tr>
															<td>Declines blood products - patient is a Jehovah’s witness</td>
														</tr>
													</tbody>
												</table>
											</div>
										</text>
										<orderedBy>
											<coding>
												<code value="system"/>
												<display value="Sorted by System"/>
											</coding>
										</orderedBy>
									</section>
									<section>
										<title value="Medications and medical devices"/>
										<code>
											<coding>
												<system value="http://snomed.info/sct"/>
												<code value="933361000000108"/>
												<display value="Medications and medical devices"/>
											</coding>
										</code>
										<text>
											<status value="generated"/>
											<div xmlns="http://www.w3.org/1999/xhtml">
												<table width="100%">
													<tbody>
														<tr>
															<th>Medication name</th>
															<td>Ramipril</td>
														</tr>
														<tr>
															<th>Dose</th>
															<td>2.5mg</td>
														</tr>
														<tr>
															<th>Medication frequency</th>
															<td>OD</td>
														</tr>
														<tr>
															<th>Route</th>
															<td>oral</td>
														</tr>
														<tr>
															<th>Medication recommendations</th>
															<td>continue</td>
														</tr>
													</tbody>
												</table>
												<table width="100%">
													<tbody>
														<tr>
															<th>Medication name</th>
															<td>Omeprazole</td>
														</tr>
														<tr>
															<th>Dose</th>
															<td>20mg</td>
														</tr>
														<tr>
															<th>Medication frequency</th>
															<td>OD/PRN</td>
														</tr>
														<tr>
															<th>Route</th>
															<td>oral</td>
														</tr>
														<tr>
															<th>Medication recommendations</th>
															<td>continue</td>
														</tr>
													</tbody>
												</table>
												<table width="100%">
													<tbody>
														<tr>
															<th>Medication name</th>
															<td>Aspirin</td>
														</tr>
														<tr>
															<th>Dose</th>
															<td>75mg</td>
														</tr>
														<tr>
															<th>Medication frequency</th>
															<td>OD</td>
														</tr>
														<tr>
															<th>Route</th>
															<td>oral</td>
														</tr>
														<tr>
															<th>Medication recommendations</th>
															<td>continue</td>
														</tr>
													</tbody>
												</table>
												<table width="100%">
													<tbody>
														<tr>
															<th>Medication name</th>
															<td>Clopidogrel</td>
														</tr>
														<tr>
															<th>Dose</th>
															<td>75mg</td>
														</tr>
														<tr>
															<th>Medication frequency</th>
															<td>OD</td>
														</tr>
														<tr>
															<th>Route</th>
															<td>oral</td>
														</tr>
														<tr>
															<th>Medication recommendations</th>
															<td>1 year then stop</td>
														</tr>
													</tbody>
												</table>
												<table width="100%">
													<tbody>
														<tr>
															<th>Medication name</th>
															<td>Simvastatin</td>
														</tr>
														<tr>
															<th>Dose</th>
															<td>40mg</td>
														</tr>
														<tr>
															<th>Medication frequency</th>
															<td>OD</td>
														</tr>
														<tr>
															<th>Route</th>
															<td>oral</td>
														</tr>
														<tr>
															<th>Medication recommendations</th>
															<td>continue</td>
														</tr>
													</tbody>
												</table>
												<table width="100%">
													<tbody>
														<tr>
															<th>Medication name</th>
															<td>Bisoprolol</td>
														</tr>
														<tr>
															<th>Dose</th>
															<td>5mg</td>
														</tr>
														<tr>
															<th>Medication frequency</th>
															<td>OD</td>
														</tr>
														<tr>
															<th>Route</th>
															<td>oral</td>
														</tr>
														<tr>
															<th>Medication recommendations</th>
															<td>Uptitrate according to BP and HR</td>
														</tr>
													</tbody>
												</table>
											</div>
										</text>
										<orderedBy>
											<coding>
												<code value="system"/>
												<display value="Sorted by System"/>
											</coding>
										</orderedBy>
									</section>
									<section>
										<title value="Participation in research"/>
										<code>
											<coding>
												<system value="http://snomed.info/sct"/>
												<code value="886751000000102"/>
												<display value="Participation in research"/>
											</coding>
										</code>
										<text>
											<status value="generated"/>
											<div xmlns="http://www.w3.org/1999/xhtml">
												<table width="100%">
													<tbody>
														<tr>
															<th>Participation in research</th>
														</tr>
														<tr>
															<td>None</td>
														</tr>
													</tbody>
												</table>
											</div>
										</text>
										<orderedBy>
											<coding>
												<code value="system"/>
												<display value="Sorted by System"/>
											</coding>
										</orderedBy>
									</section>
									<section>
										<title value="Patient and carer concerns"/>
										<code>
											<coding>
												<system value="http://snomed.info/sct"/>
												<code value="887131000000107"/>
												<display value="Patient and carer concerns"/>
											</coding>
										</code>
										<text>
											<status value="generated"/>
											<div xmlns="http://www.w3.org/1999/xhtml">
												<table width="100%">
													<tbody>
														<tr>
															<th>Patient and carer concerns</th>
														</tr>
														<tr>
															<td>Concern re possibility of heart attack/similarity with mothers illness.</td>
														</tr>
														<tr>
															<td>Worried about ability to drive and work/financial implications.</td>
														</tr>
													</tbody>
												</table>
											</div>
										</text>
										<orderedBy>
											<coding>
												<code value="system"/>
												<display value="Sorted by System"/>
											</coding>
										</orderedBy>
									</section>
									<section>
										<title value="Person completing record"/>
										<code>
											<coding>
												<system value="http://snomed.info/sct"/>
												<code value="887231000000104"/>
												<display value="Person completing record"/>
											</coding>
										</code>
										<text>
											<status value="generated"/>
											<div xmlns="http://www.w3.org/1999/xhtml">
												<table width="100%">
													<tbody>
														<tr>
															<th>Name</th>
															<td>Dr Paul Rastall</td>
														</tr>
														<tr>
															<th>Designation or role</th>
															<td>On call Dr</td>
														</tr>
														<tr>
															<th>Grade</th>
															<td>SpR</td>
														</tr>
														<tr>
															<th>Specialty</th>
															<td>Medicine</td>
														</tr>
													</tbody>
												</table>
											</div>
										</text>
										<orderedBy>
											<coding>
												<code value="system"/>
												<display value="Sorted by System"/>
											</coding>
										</orderedBy>
									</section>
									<section>
										<title value="Plan and requested actions"/>
										<code>
											<coding>
												<system value="http://snomed.info/sct"/>
												<code value="887201000000105"/>
												<display value="Plan and requested actions"/>
											</coding>
										</code>
										<text>
											<status value="generated"/>
											<div xmlns="http://www.w3.org/1999/xhtml">
												<table width="100%">
													<tbody>
														<tr>
															<th>Actions</th>
														</tr>
														<tr>
															<td>GP please continue secondary preventative medication.</td>
														</tr>
														<tr>
															<td>Doses will be uptitrated by Cardiac Rehab team.</td>
														</tr>
													</tbody>
												</table>
											</div>
										</text>
										<orderedBy>
											<coding>
												<code value="system"/>
												<display value="Sorted by System"/>
											</coding>
										</orderedBy>
									</section>
									<section>
										<title value="Procedures"/>
										<code>
											<coding>
												<system value="http://snomed.info/sct"/>
												<code value="887171000000109"/>
												<display value="Procedures"/>
											</coding>
										</code>
										<text>
											<status value="generated"/>
											<div xmlns="http://www.w3.org/1999/xhtml">
												<table width="100%">
													<tbody>
														<tr>
															<th>Procedures</th>
														</tr>
														<tr>
															<td>Coronary Angiogram with stent to right coronary artery (RCA)</td>
														</tr>
													</tbody>
												</table>
											</div>
										</text>
										<orderedBy>
											<coding>
												<code value="system"/>
												<display value="Sorted by System"/>
											</coding>
										</orderedBy>
									</section>
									<section>
										<title value="Safety alerts"/>
										<code>
											<coding>
												<system value="http://snomed.info/sct"/>
												<code value="886931000000107"/>
												<display value="Safety alerts"/>
											</coding>
										</code>
										<text>
											<status value="generated"/>
											<div xmlns="http://www.w3.org/1999/xhtml">
												<table width="100%">
													<tbody>
														<tr>
															<th>Safety Alerts</th>
														</tr>
														<tr>
															<td>None</td>
														</tr>
													</tbody>
												</table>
											</div>
										</text>
										<orderedBy>
											<coding>
												<code value="system"/>
												<display value="Sorted by System"/>
											</coding>
										</orderedBy>
									</section>
									<section>
										<title value="Social context"/>
										<code>
											<coding>
												<system value="http://snomed.info/sct"/>
												<code value="887051000000101"/>
												<display value="Social context"/>
											</coding>
										</code>
										<text>
											<status value="generated"/>
											<div xmlns="http://www.w3.org/1999/xhtml">
												<table width="100%">
													<tbody>
														<tr>
															<th>Household composition</th>
															<td>Lives alone</td>
														</tr>
														<tr>
															<th>Lives alone</th>
															<td>No</td>
														</tr>
														<tr>
															<th>Occupational history</th>
															<td>Self employed electrician</td>
														</tr>
													</tbody>
												</table>
											</div>
										</text>
										<orderedBy>
											<coding>
												<code value="system"/>
												<display value="Sorted by System"/>
											</coding>
										</orderedBy>
									</section>
								</Composition>
							</resource>
						</entry>
						<entry>
							<resource>
								<Encounter>
									<id value="cf080749-31c9-4ff6-b2d8-a2dd3dce851c"/>
									<meta>
										<profile value="https://fhir.nhs.uk/StructureDefinition/careconnect-toc-encounter-1"/>
									</meta>
									<identifier>
										<system value="https://tools.ietf.org/html/rfc4122"/>
										<value value="24c91f00-dde0-4662-bdce-2e483fe89daa"/>
									</identifier>
									<status value="finished"/>
									<type>
										<coding>
											<system value="http://snomed.info/sct"/>
											<code value="24882007"/>
											<display value="Medical consultation on hospital inpatient"/>
										</coding>
									</type>
									<patient>
										<reference value="Patient/f919dedc-3c62-462f-a171-8d86c5aaa074"/>
										<display value="Mr Jon Burrows"/>
									</patient>
									<participant>
										<type>
											<coding>
												<system value="http://hl7.org/fhir/v3/ParticipationType"/>
												<code value="DIS"/>
												<display value="discharger"/>
											</coding>
										</type>
										<individual>
											<reference value="Practitioner/04d089aa-be17-42fd-a6fc-961245696263"/>
											<display value="Dr Beck"/>
										</individual>
									</participant>
									<period>
										<start value="2015-03-13T12:00:00+00:00"/>
										<end value="2015-04-06T12:00:00+00:00"/>
									</period>
									<hospitalization>
										<origin>
											<reference value="Location/e1e34198-c5f8-41b6-8fc4-a2b66abcdc0b"/>
										</origin>
										<admitSource>
											<coding>
												<system value="https://fhir.nhs.uk/Admission-Method-1"/>
												<code value="21"/>
												<display value="Accident and emergency or dental casualty department of the Health Care Provider"/>
											</coding>
										</admitSource>
										<destination>
											<reference value="Location/250f278e-eff8-4df8-82e3-789055c5fd8a"/>
										</destination>
										<dischargeDisposition>
											<coding>
												<system value="https://fhir.nhs.uk/Discharge-Method-1"/>
												<code value="1"/>
												<display value="Patient discharged on clinical advice or with clinical consent"/>
											</coding>
										</dischargeDisposition>
									</hospitalization>
									<location>
										<location>
											<reference value="Location/01bb1ccc-577b-4a4a-9fb0-9c8fe9f21fa3"/>
											<display value="Hospital"/>
										</location>
									</location>
								</Encounter>
							</resource>
						</entry>
						<entry>
							<resource>
								<Patient>
									<id value="f919dedc-3c62-462f-a171-8d86c5aaa074"/>
									<meta>
										<profile value="http://hl7.org/fhir/StructureDefinition/careconnect-patient-1"/>
									</meta>
									<extension url="http://hl7.org.uk/fhir/CareConnect-EthnicCategory-1-Extension">
										<valueCodeableConcept>
											<coding>
												<system value="http://hl7.org.uk/fhir/CareConnect-EthnicCategory-1"/>
												<code value="A"/>
												<display value="British, Mixed British"/>
											</coding>
										</valueCodeableConcept>
									</extension>
									<extension url="http://hl7.org.uk/fhir/CareConnect-ResidentialStatus-1-Extension">
										<valueCodeableConcept>
											<coding>
												<system value="http://hl7.org.uk/fhir/CareConnect-ResidentialStatus"/>
												<code value="H"/>
												<display value="UK Resident"/>
											</coding>
										</valueCodeableConcept>
									</extension>
									<extension url="http://hl7.org.uk/fhir/CareConnect-TreatmentCategory-1-Extension">
										<valueCodeableConcept>
											<coding>
												<system value="http://hl7.org.uk/fhir/CareConnect-TreatmentCategory"/>
												<code value="8"/>
												<display value="Not applicable"/>
											</coding>
										</valueCodeableConcept>
									</extension>
									<extension url="http://hl7.org.uk/fhir/CareConnect-NhsCommunication-1-Extension">
										<extension url="language">
											<valueCodeableConcept>
												<coding>
													<system value="http://hl7.org.uk/fhir/CareConnect-HumanLanguage"/>
													<code value="en"/>
													<display value="English"/>
												</coding>
											</valueCodeableConcept>
										</extension>
										<extension url="preferred">
											<valueBoolean value="true"/>
										</extension>
										<extension url="modeOfCommunication">
											<valueCodeableConcept>
												<coding>
													<system value="http://hl7.org.uk/fhir/CareConnect-LanguageAbilityMode"/>
													<code value="ESP"/>
													<display value="Expressed spoken"/>
												</coding>
											</valueCodeableConcept>
										</extension>
										<extension url="modeOfCommunication">
											<valueCodeableConcept>
												<coding>
													<system value="http://hl7.org.uk/fhir/CareConnect-LanguageAbilityMode"/>
													<code value="RWR"/>
													<display value="Received written"/>
												</coding>
											</valueCodeableConcept>
										</extension>
										<extension url="communicationProficiency">
											<valueCodeableConcept>
												<coding>
													<system value="http://hl7.org.uk/fhir/CareConnect-LanguageAbilityProficiency"/>
													<code value="E"/>
													<display value="Excellent"/>
												</coding>
											</valueCodeableConcept>
										</extension>
										<extension url="interpreterRequired">
											<valueBoolean value="false"/>
										</extension>
									</extension>
									<identifier>
										<extension url="http://hl7.org.uk/fhir/CareConnect-NhsNumberVerificationStatus-1-Extension">
											<valueCodeableConcept>
												<coding>
													<system value="http://hl7.org.uk/fhir/CareConnect-NhsNumberVerificationStatus"/>
													<code value="01"/>
													<display value="Number present and verified"/>
												</coding>
											</valueCodeableConcept>
										</extension>
										<system value="https://fhir.nhs.uk/Id/nhs-number"/>
										<value value="12345678"/>
									</identifier>
									<active value="true"/>
									<name>
										<use value="usual"/>
										<family value="Burrows"/>
										<given value="Jon"/>
										<prefix value="Mr"/>
									</name>
									<gender value="male"/>
									<birthDate value="1970-09-10"/>
									<address>
										<use value="home"/>
										<line value="22, Brown Street"/>
										<city value="Overtown"/>
										<district value="West Yorkshire"/>
										<postalCode value="LN22"/>
									</address>
									<maritalStatus>
										<coding>
											<system value="http://hl7.org/fhir/marital-status"/>
											<code value="M"/>
											<display value="Married"/>
										</coding>
									</maritalStatus>
									<contact>
										<relationship>
											<coding>
												<system value="https://fhir.nhs.uk/cda-person-relationship-type-1"/>
												<code value="22"/>
												<display value="Wife"/>
											</coding>
										</relationship>
										<name>
											<use value="usual"/>
											<family value="Burrows"/>
											<given value="Eve"/>
											<prefix value="Mrs"/>
										</name>
										<telecom>
											<system value="phone"/>
											<value value="07912678910"/>
											<use value="mobile"/>
										</telecom>
										<telecom>
											<system value="email"/>
											<value value="eburrows@mymail.com"/>
										</telecom>
										<gender value="female"/>
									</contact>
									<careProvider>
										<reference value="Organization/f9f24f89-646b-4a19-a6b1-cabfa3b612e1"/>
										<display value="MGP Medical Centre"/>
									</careProvider>
								</Patient>
							</resource>
						</entry>
						<entry>
							<resource>
								<Practitioner>
									<id value="5e414a77-d394-4248-a631-00e45ddb64a0"/>
									<meta>
										<profile value="http://hl7.org.uk/fhir/StructureDefinition/CareConnect-practitioner-1"/>
									</meta>
									<identifier>
										<system value="https://fhir.nhs.uk/Id/sds-identifier"/>
										<value value="GP12345600"/>
									</identifier>
									<name>
										<family value="Lorenzo"/>
										<given value="John"/>
										<prefix value="Dr"/>
									</name>
									<telecom>
										<system value="phone"/>
										<value value="01634111222"/>
										<use value="work"/>
									</telecom>
									<telecom>
										<system value="email"/>
										<value value="John.Lorenzo@MMC.co.uk"/>
									</telecom>
									<practitionerRole>
										<managingOrganization>
											<reference value="Organization/f9f24f89-646b-4a19-a6b1-cabfa3b612e1"/>
											<display value="MGP Medical Centre"/>
										</managingOrganization>
										<role>
											<coding>
												<system value="https://fhir.nhs.uk/job-role-name-1"/>
												<code value="NR9100"/>
												<display value="Named GP"/>
											</coding>
										</role>
									</practitionerRole>
								</Practitioner>
							</resource>
						</entry>
						<entry>
							<resource>
								<Practitioner>
									<id value="04d089aa-be17-42fd-a6fc-961245696263"/>
									<meta>
										<profile value="http://hl7.org.uk/fhir/CareConnect-Practitioner-1"/>
									</meta>
									<name>
										<family value="Beck"/>
										<prefix value="Dr"/>
									</name>
									<practitionerRole>
										<role>
											<coding>
												<system value="http://hl7.org/fhir/practitioner-role"/>
												<code value="doctor"/>
												<display value="Doctor"/>
											</coding>
										</role>
									</practitionerRole>
								</Practitioner>
							</resource>
						</entry>
						<entry>
							<resource>
								<Practitioner>
									<id value="44c853c7-a22f-49ce-8eb5-27a05c83e6ec"/>
									<meta>
										<profile value="http://hl7.org.uk/fhir/CareConnect-Practitioner-1"/>
									</meta>
									<name>
										<family value="Scott"/>
										<given value="Matthew"/>
										<prefix value="Dr"/>
									</name>
									<telecom>
										<system value="phone"/>
										<value value="01634111222"/>
										<use value="work"/>
									</telecom>
									<practitionerRole>
										<role>
											<coding>
												<system value="http://hl7.org/fhir/practitioner-role"/>
												<code value="doctor"/>
												<display value="Doctor"/>
											</coding>
										</role>
									</practitionerRole>
								</Practitioner>
							</resource>
						</entry>
						<entry>
							<resource>
								<Practitioner>
									<id value="8ece9986-9af0-4882-b0cf-23a96ea7b509"/>
									<meta>
										<profile value="http://hl7.org.uk/fhir/CareConnect-Practitioner-1"/>
									</meta>
									<name>
										<family value="Smith"/>
										<given value="Angela"/>
										<prefix value="Dr"/>
									</name>
									<practitionerRole>
										<role>
											<coding>
												<system value="http://hl7.org/fhir/practitioner-role"/>
												<code value="doctor"/>
												<display value="Doctor"/>
											</coding>
										</role>
									</practitionerRole>
								</Practitioner>
							</resource>
						</entry>
						<entry>
							<resource>
								<Organization>
									<id value="f9f24f89-646b-4a19-a6b1-cabfa3b612e1"/>
									<meta>
										<profile value="http://hl7.org/fhir/StructureDefinition/CareConnect-organization-1"/>
									</meta>
									<identifier>
										<system value="https://fhir.nhs.uk/Id/ods-organization-code"/>
										<value value="GP123456"/>
									</identifier>
									<type>
										<coding>
											<system value="http://hl7.org/fhir/organization-type"/>
											<code value="prov"/>
											<display value="Healthcare Provider"/>
										</coding>
									</type>
									<name value="MGP Medical Centre"/>
									<telecom>
										<system value="phone"/>
										<value value="01634111223"/>
										<use value="work"/>
									</telecom>
									<telecom>
										<system value="email"/>
										<value value="Admin@MMC.co.uk"/>
									</telecom>
									<address>
										<use value="work"/>
										<line value="1 MGP House"/>
										<line value="Overtown"/>
										<line value="Leeds"/>
										<line value="LS21 7PA"/>
									</address>
								</Organization>
							</resource>
						</entry>
						<entry>
							<resource>
								<Organization>
									<id value="6de0a05a-d4b2-4f67-b0d4-80cc2a670f90"/>
									<meta>
										<profile value="http://hl7.org.uk/CareConnect-Organization-1"/>
									</meta>
									<identifier>
										<system value="https://fhir.nhs.uk/Id/ods-organization-code"/>
										<value value="RR8"/>
									</identifier>
									<type>
										<coding>
											<system value="http://hl7.org/fhir/organization-type"/>
											<code value="prov"/>
											<display value="Healthcare Provider"/>
										</coding>
									</type>
									<name value="Leeds Teaching Hospitals NHS Trust"/>
									<telecom>
										<system value="phone"/>
										<value value="01132433144"/>
										<use value="work"/>
									</telecom>
									<address>
										<line value="Leeds Teaching Hospitals NHS Trust"/>
										<line value="St James's University Hospital"/>
										<line value="Neurology Department"/>
										<line value="Beckett Street"/>
										<city value="Leeds"/>
										<postalCode value="LS9 7TF"/>
									</address>
								</Organization>
							</resource>
						</entry>
						<entry>
							<resource>
								<Location>
									<id value="e1e34198-c5f8-41b6-8fc4-a2b66abcdc0b"/>
									<meta>
										<profile value="https://fhir.nhs.uk/StructureDefinition/cofe-admission-location-1"/>
									</meta>
									<type>
										<coding>
											<system value="https://fhir.nhs.uk/Source-Of-Admission-1"/>
											<code value="19"/>
											<display value="Usual place of residence unless listed below, for example, a private dwelling whether owner occupied or owned by Local Authority, housing association or other landlord. This includes Wardened accommodation but not residential accommodation where health care is provided. It also includes Patients with no fixed abode."/>
										</coding>
									</type>
								</Location>
							</resource>
						</entry>
						<entry>
							<resource>
								<Location>
									<id value="250f278e-eff8-4df8-82e3-789055c5fd8a"/>
									<meta>
										<profile value="https://fhir.nhs.uk/StructureDefinition/cofe-discharge-location-1"/>
									</meta>
									<type>
										<coding>
											<system value="https://fhir.nhs.uk/Discharge-Destination-1"/>
											<code value="19"/>
											<display value="Usual place of residence unless listed below, for example, a private dwelling whether owner occupied or owned by local authority, housing association or other landlord. This includes wardened accommodation but not residential accommodation where health care is provided. It also includes PATIENTS with no fixed abode."/>
										</coding>
									</type>
								</Location>
							</resource>
						</entry>
						<entry>
							<resource>
								<Location>
									<id value="01bb1ccc-577b-4a4a-9fb0-9c8fe9f21fa3"/>
									<meta>
										<profile value="https://fhir.nhs.uk/StructureDefinition/cofe-location-1"/>
									</meta>
									<name value="Leeds Teaching Hospital"/>
									<type>
										<coding>
											<system value="http://hl7.org/fhir/v3-ServiceDeliveryLocationRoleType"/>
											<code value="HOSP"/>
											<display value="Hospital"/>
										</coding>
									</type>
								</Location>
							</resource>
						</entry>
						<entry>
							<resource>
								<Medication>
									<id value="939fae99-0e5b-44dd-8ef6-dbbfce9089c1"/>
									<!--   this example includes a coded Manufactured Over the Counter Medication   -->
									<!--   this example was taken from the FHIR specification      					-->
									<meta>
										<profile value=""/>
									</meta>
									<text>
										<status value="generated"/>
										<div xmlns="http://www.w3.org/1999/xhtml">Tylenol No. 1 Caplets</div>
									</text>
									<code>
										<coding>
											<system value="http://hc-sc.gc.ca"/>
											<code value="02181061"/>
											<display value="Tylenol No. 1 Caplets"/>
										</coding>
									</code>
									<isBrand value="true"/>
									<product>
										<form>
											<coding>
												<system value="http://snomed.info/sct"/>
												<code value="48582000"/>
												<display value="Caplet"/>
											</coding>
										</form>
									</product>
								</Medication>
							</resource>
						</entry>
						<entry>
							<resource>
								<AllergyIntolerance>
									<id value="a68bcc94-c887-4b89-b6ef-b972789a4dee"/>
									<!--   this example was taken from the FHIR specification      					-->
									<meta>
										<profile value=""/>
									</meta>
									<text>
										<status value="additional"/>
										<div xmlns="http://www.w3.org/1999/xhtml">
											<p>allergy is to fresh fish. Tolerates canned fish</p>
											<p>recordedDate:2015-08-06T00:00:00-06:00</p>
											<p>substance:Fish - dietary (substance)</p>
										</div>
									</text>
									<!--   an identifier used for this Adverse Reaction Risk   -->
									<identifier>
										<system value="http://acme.com/ids/patients/risks"/>
										<value value="49476535"/>
									</identifier>
									<!--   the date that this entry was recorded   -->
									<recordedDate value="2015-08-06T15:37:31-06:00"/>
									<!--   who made the record / last updated it   -->
									<recorder>
										<reference value="Practitioner/8ece9986-9af0-4882-b0cf-23a96ea7b509"/>
									</recorder>
									<!--   the patient that actually has the risk of adverse reaction   -->
									<patient>
										<reference value="Patient/f919dedc-3c62-462f-a171-8d86c5aaa074"/>
									</patient>
									<!--   subtance - either coded, or text. A few times, 
    there's a full description of a complex substance - in these caes, use the
    extension [url] to refer to a Substance resource   -->
									<substance>
										<coding>
											<system value="http://snomed.info/sct"/>
											<code value="227037002"/>
											<display value="Fish - dietary (substance)"/>
										</coding>
										<text value="Allergic to fresh fish. Tolerates canned fish"/>
									</substance>
									<!--   this categorisation is implied by "cashew nut" and therefore basically 
    redundant, but many systems collect this field anyway, since it's either 
    useful when the substance is not coded, or it's quicker to sort/filter on
    than using terminology based reasoning   -->
									<category value="food"/>
								</AllergyIntolerance>
							</resource>
						</entry>
						<entry>
							<resource>
								<Condition>
									<id value="581bd7ab-80d0-4052-af58-521c80ff9b8d"/>
									<!--   this example was taken from the FHIR specification      					-->
									<meta>
										<profile value=""/>
									</meta>
									<text>
										<status value="generated"/>
										<div xmlns="http://www.w3.org/1999/xhtml">Mild Asthma (Date: 21-Nov 2012)</div>
									</text>
									<patient>
										<reference value="Patient/f919dedc-3c62-462f-a171-8d86c5aaa074"/>
									</patient>
									<code>
										<text value="Asthma"/>
									</code>
									<category>
										<coding>
											<system value="http://hl7.org/fhir/condition-category"/>
											<code value="finding"/>
											<display value="Finding"/>
										</coding>
									</category>
									<clinicalStatus value="active"/>
									<verificationStatus value="confirmed"/>
									<severity>
										<coding>
											<system value="http://snomed.info/sct"/>
											<code value="255604002"/>
											<display value="Mild"/>
										</coding>
									</severity>
									<onsetDateTime value="2012-11-12"/>
								</Condition>
							</resource>
						</entry>
						<entry>
							<resource>
								<Procedure>
									<id value="9fad3e38-9589-4c6e-a686-4c2b0e06e22f"/>
									<!--   this example was taken from the FHIR specification      					-->
									<meta>
										<profile value=""/>
									</meta>
									<text>
										<status value="generated"/>
										<div xmlns="http://www.w3.org/1999/xhtml">Routine Appendectomy</div>
									</text>
									<subject>
										<reference value="Patient/f919dedc-3c62-462f-a171-8d86c5aaa074"/>
									</subject>
									<status value="completed"/>
									<code>
										<coding>
											<system value="http://snomed.info/sct"/>
											<code value="80146002"/>
											<display value="Appendectomy (Procedure)"/>
										</coding>
										<text value="Appendectomy"/>
									</code>
									<reasonCodeableConcept>
										<text value="Generalized abdominal pain 24 hours. Localized in RIF with rebound and guarding"/>
									</reasonCodeableConcept>
									<performer>
										<actor>
											<reference value="Practitioner/44c853c7-a22f-49ce-8eb5-27a05c83e6ec"/>
											<display value="Dr Matthew Scott"/>
										</actor>
									</performer>
									<performedDateTime value="2017-04-05"/>
									<followUp>
										<text value="ROS 5 days  - 2017-04-10"/>
									</followUp>
									<notes>
										<text value="Routine Appendectomy. Appendix was inflamed and in retro-caecal position"/>
									</notes>
								</Procedure>
							</resource>
						</entry>
						<entry>
							<resource>
								<Device>
									<id value="046f1e8c-c842-47fd-8292-cc5af8fe4c50"/>
									<!--   this example was taken from the FHIR specification      					-->
									<meta>
										<profile value=""/>
									</meta>
									<text>
										<status value="generated"/>
										<div xmlns="http://www.w3.org/1999/xhtml">
											<p>
												<b>Generated Narrative with Details</b>
											</p>
											<p>
												<b>id</b>: 046f1e8c-c842-47fd-8292-cc5af8fe4c50</p>
											<p>
												<b>identifier</b>: 12345</p>
											<p>
												<b>type</b>: Feeding tube, device <span>(Details : {SNOMED CT code '25062003' = '25062003', given as 'Feeding tube, device'})</span>
											</p>
											<p>
												<b>status</b>: available</p>
											<p>
												<b>manufactureDate</b>: 08/08/2015</p>
											<p>
												<b>expiry</b>: 08/08/2020</p>
											<p>
												<b>udi</b>: (01)00000123000017(10)ABC123(17)120415</p>
											<p>
												<b>owner</b>: <a>Organization/6de0a05a-d4b2-4f67-b0d4-80cc2a670f90</a>
											</p>
											<p>
												<b>location</b>: Central Supply</p>
										</div>
									</text>
									<identifier>
										<system value="http:/goodhealthhospital/identifier/devices"/>
										<value value="12345"/>
									</identifier>
									<type>
										<coding>
											<system value="http://snomed.info/sct"/>
											<code value="25062003"/>
											<display value="Feeding tube, device"/>
										</coding>
									</type>
									<status value="available"/>
									<manufactureDate value="2015-08-08"/>
									<expiry value="2020-08-08"/>
									<!--    this udi is fictitious and will be updated when more information and better examples    of UDI's become available     -->
									<udi value="(01)00000123000017(10)ABC123(17)120415"/>
									<owner>
										<reference value="Organization/6de0a05a-d4b2-4f67-b0d4-80cc2a670f90"/>
									</owner>
									<location>
										<display value="Central Supply"/>
									</location>
								</Device>
							</resource>
						</entry>
					</Bundle>
				</resource>
			</entry>
		</Bundle>